Folder: mowsse_alloys/raman/raman_data/MoSSe

Note: raman/raman_data/MoSSe/x0.000y0.280.json
{"version":[4,2],"axesColl":[{"name":"XY","type":"XYAxes","isLogX":false,"isLogY":false,"noRotation":false,"calibrationPoints":[{"px":32.760139049826186,"py":556.2398609501738,"dx":"100","dy":"0","dz":null},{"px":638.8227114716107,"py":556.2398609501738,"dx":"400","dy":"0","dz":null},{"px":32.760139049826186,"py":556.2398609501738,"dx":"100","dy":"0","dz":null},{"px":32.07763615295481,"py":12.28505214368482,"dx":"400","dy":"100","dz":null}]},{"name":"XY 2","type":"XYAxes","isLogX":false,"isLogY":false,"noRotation":false,"calibrationPoints":[{"px":24.23940149625935,"py":455.1620947630923,"dx":"100","dy":"0","dz":null},{"px":479.40149625935163,"py":455.1620947630923,"dx":"500","dy":"0","dz":null},{"px":24.23940149625935,"py":455.8354114713217,"dx":"100","dy":"0","dz":null},{"px":24.91271820448878,"py":11.44638403990025,"dx":"500","dy":"100","dz":null}]}],"datasetColl":[{"name":"Default Dataset","axesName":"XY","colorRGB":[200,0,0,255],"metadataKeys":[],"data":[{"x":34.5,"y":505.2857142857143,"value":[100.89287482622902,9.367349242901241]},{"x":41.5,"y":505.7142857142857,"value":[104.35759740821646,9.288561185210966]},{"x":48.5,"y":506,"value":[107.8224087154941,9.236035813417459]},{"x":55.5,"y":505.7857142857143,"value":[111.28753056128743,9.275429842262596]},{"x":62.5,"y":505.42857142857144,"value":[114.75274113237093,9.341086557004488]},{"x":69.5,"y":505.92857142857144,"value":[118.21741935171329,9.249167156365843]},{"x":76.5,"y":506,"value":[121.68236374692623,9.236035813417459]},{"x":83.5,"y":506,"value":[125.14735250478425,9.236035813417459]},{"x":90.5,"y":506,"value":[128.61234126264227,9.236035813417459]},{"x":97.5,"y":506,"value":[132.0773300205003,9.236035813417459]},{"x":104.5,"y":506,"value":[135.54231877835832,9.236035813417459]},{"x":111.5,"y":505.14285714285717,"value":[139.00783988795752,9.393611928797995]},{"x":118.5,"y":504.2142857142857,"value":[142.47340536020178,9.5643193871269]},{"x":125.5,"y":503,"value":[145.93914828302644,9.787552217249313]},{"x":132.5,"y":503.5,"value":[149.40382650236882,9.695632816610683]},{"x":139.5,"y":503.2142857142857,"value":[152.86899271080722,9.74815818840419]},{"x":146.5,"y":502.2142857142857,"value":[156.33460254569658,9.931996989681465]},{"x":153.5,"y":501,"value":[159.80034546852124,10.155229819803893]},{"x":160.5,"y":498.5,"value":[163.2668869189576,10.614826822997102]},{"x":167,"y":494.1666666666667,"value":[166.48706781362827,11.41146162853201]},{"x":173,"y":489.3333333333333,"value":[169.46006004982473,12.300015834705562]},{"x":177,"y":485,"value":[171.44274495954608,13.096650640240455]},{"x":182.5,"y":481,"value":[174.1677204345599,13.832005845349599]},{"x":187.66666666666666,"y":483.8333333333333,"value":[176.723452418533,13.311129241730626]},{"x":190.1,"y":489.2,"value":[177.92461539714876,12.324527674875867]},{"x":194.25,"y":494.875,"value":[179.97533412001172,11.28124247762726]},{"x":201.5,"y":498.35714285714283,"value":[183.56190979741626,10.64108950889387]},{"x":208.5,"y":499.7857142

Note: raman/raman_data/MoSSe/x0.000y0.330.json
{"version":[4,2],"axesColl":[{"name":"XY","type":"XYAxes","isLogX":false,"isLogY":false,"noRotation":false,"calibrationPoints":[{"px":32.760139049826186,"py":556.2398609501738,"dx":"100","dy":"0","dz":null},{"px":638.8227114716107,"py":556.2398609501738,"dx":"400","dy":"0","dz":null},{"px":32.760139049826186,"py":556.2398609501738,"dx":"100","dy":"0","dz":null},{"px":32.07763615295481,"py":12.28505214368482,"dx":"400","dy":"100","dz":null}]},{"name":"XY 2","type":"XYAxes","isLogX":false,"isLogY":false,"noRotation":false,"calibrationPoints":[{"px":24.23940149625935,"py":455.1620947630923,"dx":"100","dy":"0","dz":null},{"px":479.40149625935163,"py":455.1620947630923,"dx":"500","dy":"0","dz":null},{"px":24.23940149625935,"py":455.8354114713217,"dx":"100","dy":"0","dz":null},{"px":24.91271820448878,"py":11.44638403990025,"dx":"500","dy":"100","dz":null}]}],"datasetColl":[{"name":"Default Dataset","axesName":"XY","colorRGB":[200,0,0,255],"metadataKeys":[],"data":[{"x":34.5,"y":505.2857142857143,"value":[100.89287482622902,9.367349242901241]},{"x":41.5,"y":505.7142857142857,"value":[104.35759740821646,9.288561185210966]},{"x":48.5,"y":506,"value":[107.8224087154941,9.236035813417459]},{"x":55.5,"y":505.7857142857143,"value":[111.28753056128743,9.275429842262596]},{"x":62.5,"y":505.42857142857144,"value":[114.75274113237093,9.341086557004488]},{"x":69.5,"y":505.92857142857144,"value":[118.21741935171329,9.249167156365843]},{"x":76.5,"y":506,"value":[121.68236374692623,9.236035813417459]},{"x":83.5,"y":506,"value":[125.14735250478425,9.236035813417459]},{"x":90.5,"y":506,"value":[128.61234126264227,9.236035813417459]},{"x":97.5,"y":506,"value":[132.0773300205003,9.236035813417459]},{"x":104.5,"y":506,"value":[135.54231877835832,9.236035813417459]},{"x":111.5,"y":505.14285714285717,"value":[139.00783988795752,9.393611928797995]},{"x":118.5,"y":504.2142857142857,"value":[142.47340536020178,9.5643193871269]},{"x":125.5,"y":503,"value":[145.93914828302644,9.787552217249313]},{"x":132.5,"y":503.5,"value":[149.40382650236882,9.695632816610683]},{"x":139.5,"y":503.2142857142857,"value":[152.86899271080722,9.74815818840419]},{"x":146.5,"y":502.2142857142857,"value":[156.33460254569658,9.931996989681465]},{"x":153.5,"y":501,"value":[159.80034546852124,10.155229819803893]},{"x":160.5,"y":498.5,"value":[163.2668869189576,10.614826822997102]},{"x":167,"y":494.1666666666667,"value":[166.48706781362827,11.41146162853201]},{"x":173,"y":489.3333333333333,"value":[169.46006004982473,12.300015834705562]},{"x":177,"y":485,"value":[171.44274495954608,13.096650640240455]},{"x":182.5,"y":481,"value":[174.1677204345599,13.832005845349599]},{"x":187.66666666666666,"y":483.8333333333333,"value":[176.723452418533,13.311129241730626]},{"x":190.1,"y":489.2,"value":[177.92461539714876,12.324527674875867]},{"x":194.25,"y":494.875,"value":[179.97533412001172,11.28124247762726]},{"x":201.5,"y":498.35714285714283,"value":[183.56190979741626,10.64108950889387]},{"x":208.5,"y":499.7857142

File: x0.000y0.000.csv
102.827, 6.6913
107.221, 6.7138
111.615, 6.7138
116.009, 6.7138
120.403, 6.7138
124.796, 6.78131
129.189, 6.98384
133.583, 6.98384
137.976, 7.16386
142.37, 7.16386
146.764, 7.16386
151.158, 7.16386
155.552, 7.16386
159.946, 7.16386
164.34, 7.16386
168.735, 7.16386
173.129, 7.16386
177.523, 7.16386
181.916, 7.23137
186.311, 7.16386
190.705, 7.16386
195.099, 7.16386
199.493, 7.16386
203.887, 7.18636
208.279, 7.4564
212.675, 7.20887
217.068, 7.34388
221.461, 7.43389
225.855, 7.5014
230.249, 7.5014
234.643, 7.5014
239.037, 7.5014
243.431, 7.5014
247.825, 7.5014
252.219, 7.5014
256.613, 7.5014
261.007, 7.54641
265.4, 7.72643
269.795, 7.52391
274.189, 7.52391
278.583, 7.59141
282.977, 7.54641
287.37, 7.79394
291.764, 7.83895
296.158, 7.81644
300.55, 8.19899
304.944, 8.15398
309.34, 7.83895
313.734, 7.83895
318.128, 7.83895
322.522, 7.83895
326.916, 7.83895
331.31, 7.83895
335.704, 7.83895
340.098, 7.83895
344.492, 7.83895
348.886, 7.83895
353.28, 7.83895
357.674, 7.83895
362.067, 8.06397
366.459, 8.37901
375.242, 9.21162
378.971, 10.2017
380.669, 12.8871
382.23, 16.3775
384.422, 17.2339
386.19, 15.6024
387.704, 12.182
387.537, 10.6893
390.182, 9.18911
394.577, 9.0766
397.91, 10.0667
400.054, 11.6644
401.557, 17.5152
402.404, 23.0283
405.198, 25.9762
406.787, 24.8286
408.133, 20.103
410.366, 14.0647
411.265, 10.6143
414.347, 9.58291
418.307, 8.71655
422.701, 8.64905
427.096, 8.46902
431.489, 8.67155
435.882, 8.89658
440.275, 9.0541
444.666, 9.52666
449.056, 10.2017
453.451, 10.1117
457.849, 9.41414
462.244, 9.25662
466.64, 8.96409
471.257, 8.40152
475.434, 7.88395
479.828, 7.83895
484.223, 7.83895
488.617, 7.83895
493.011, 7.83895
497.403, 8.08648
500.478, 8.23274

File: x0.000y0.280.csv
100.978, 22.1732
105.372, 22.1507
109.764, 22.5108
114.157, 22.5783
118.551, 22.5783
122.945, 22.5783
127.339, 22.5783
131.733, 22.5783
136.127, 22.5783
140.521, 22.6908
144.913, 23.0283
149.307, 23.0283
153.701, 23.0283
158.095, 23.0283
162.489, 23.0283
166.883, 23.0283
171.277, 23.0283
175.671, 23.0283
180.065, 23.0283
184.459, 23.0958
188.853, 23.0508
193.247, 23.1184
197.64, 23.2084
202.035, 23.1634
206.428, 23.2534
210.822, 23.2534
215.216, 23.2534
219.61, 23.2534
224.004, 23.2534
228.398, 23.2534
232.792, 23.2534
237.186, 23.2534
241.58, 23.2534
245.974, 23.2534
250.367, 23.4559
254.76, 23.7034
259.152, 24.086
263.542, 24.7386
269.077, 26.0606
274.999, 25.303
277.96, 24.8485
282.878, 24.311
287.275, 23.8834
291.67, 23.7034
296.064, 23.7034
300.457, 23.8834
304.85, 23.951
309.246, 23.7709
313.641, 23.5909
318.036, 23.4109
322.428, 23.7034
326.822, 23.7034
331.216, 23.7034
335.609, 23.9285
340.002, 24.1535
344.395, 24.311
348.787, 24.6035
353.176, 25.4361
357.568, 25.8637
361.961, 25.9537
366.355, 25.9537
370.308, 26.2069
373.379, 27.0507
374.983, 28.0303
377.345, 28.7879
380.406, 27.6414
382.169, 26.7038
386.13, 25.7287
390.087, 25.2111
394.48, 25.4361
396.452, 26.2912
398.158, 27.6639
399.907, 29.0816
402.189, 30.1515
404.993, 31.0168
406.333, 29.8485
406.931, 28.7879
407.945, 27.1914
410.737, 25.588
414.698, 24.6035
419.094, 24.2435
423.488, 24.1535
427.882, 24.1535
432.276, 24.1535
436.671, 24.0185
441.067, 23.7034
445.461, 23.7034
449.855, 23.7034
454.25, 23.5909
458.646, 23.2534
463.04, 23.2534
467.434, 23.2534
471.827, 23.4334
476.22, 23.6809
480.614, 23.5909
485.007, 23.7034
489.402, 23.7034
493.796, 23.7034
497.309, 24.0035

File: x0.000y0.330.csv
100.91, 33.5146
105.305, 33.4921
109.699, 33.4921
114.092, 33.5822
118.485, 33.8297
122.879, 33.8297
127.273, 33.8297
131.667, 33.8297
136.061, 33.8297
140.455, 33.8297
144.849, 33.8297
149.242, 33.9647
153.636, 34.0547
162.423, 34.2347
166.816, 34.2797
171.211, 34.2797
175.605, 34.1672
179.999, 34.2572
184.393, 34.2797
188.787, 34.2797
193.181, 34.2797
197.574, 34.3247
201.967, 34.5273
206.361, 34.6623
210.755, 34.6173
215.149, 34.6173
219.543, 34.6173
223.937, 34.6173
228.331, 34.6173
232.725, 34.6173
237.119, 34.6173
241.513, 34.6173
245.907, 34.6173
250.301, 34.6173
254.694, 34.8873
259.086, 35.1799
263.476, 35.7874
267.864, 36.8676
270.194, 37.4242
272.254, 37.4976
276.215, 36.5019
280.174, 35.7874
284.57, 35.4049
288.966, 35.1348
293.361, 34.9548
297.754, 35.1348
302.148, 35.1799
306.542, 35.1123
310.937, 34.9548
315.331, 34.9548
319.725, 34.9548
324.119, 34.9548
328.513, 34.9548
332.906, 35.1123
337.299, 35.4049
341.693, 35.4049
346.084, 35.8099
350.477, 35.9675
354.867, 36.665
359.256, 37.5652
363.648, 37.8802
368.043, 37.7452
372.434, 38.3302
375.942, 39.4413
376.37, 41.4244
379.819, 42.0593
383.092, 40.4519
384.734, 38.8778
386.498, 37.7227
390.894, 37.3176
395.162, 37.4944
397.478, 38.5553
399.654, 42.1276
401.397, 44.6451
402.688, 45.9091
404.017, 47.3464
406.661, 46.0562
407.994, 43.6747
408.267, 42.0657
409.709, 40.2269
411.728, 38.4588
413.745, 37.0176
418.143, 36.395
422.539, 36.08
426.932, 36.1925
431.326, 36.1925
435.722, 35.99
440.117, 35.8324
444.51, 35.8549
448.904, 35.8549
453.3, 35.6299
457.696, 35.2924
462.092, 34.9548
466.486, 34.9548
470.88, 34.9548
475.274, 34.9548
479.668, 34.9548
484.06, 35.3599
488.453, 35.4049
492.848, 35.4049
496.801, 35.658

File: x0.000y0.470.csv
100.866, 41.0531
105.258, 41.3681
109.65, 41.7282
114.041, 42.2007
118.435, 42.2232
122.828, 42.3582
127.222, 42.3582
131.615, 42.6058
136.009, 42.6058
140.403, 42.6058
144.797, 42.6283
149.189, 42.9433
153.583, 42.9433
157.978, 42.8758
162.371, 42.8983
166.763, 43.2584
171.157, 43.3934
175.551, 43.3934
179.945, 43.3934
184.337, 43.7309
188.731, 43.7309
193.125, 43.6859
197.521, 43.4384
201.913, 43.7759
206.302, 44.4735
210.694, 44.8561
215.088, 44.9686
219.481, 45.1036
223.878, 44.5635
228.277, 43.8209
232.673, 43.4834
237.065, 43.7309
241.459, 43.7759
245.848, 44.541
250.237, 45.3961
254.625, 46.5663
255.498, 47.4814
258.128, 48.494
259.527, 49.8292
262.652, 51.3819
266.671, 52.8727
271.282, 53.3396
274.803, 52.3195
276.919, 51.1118
278.113, 49.8911
280.096, 48.9441
282.739, 47.7814
287.139, 46.8138
291.538, 45.9587
295.933, 45.8237
300.327, 45.8012
304.723, 45.4861
309.121, 44.7435
313.517, 44.496
317.91, 44.6535
322.303, 44.8561
326.696, 45.0361
331.086, 45.7562
335.478, 46.0937
339.867, 46.8138
344.256, 47.8039
348.643, 48.9516
353.032, 49.7842
357.428, 49.4691
361.821, 49.6942
365.681, 50.7068
367.519, 52.0007
369.051, 53.0133
371.9, 54.2697
375.864, 52.732
378.08, 49.5254
380.284, 48.299
384.683, 47.4364
389.078, 47.3314
392.736, 47.9689
394.773, 50.1817
396.252, 52.642
397.994, 55.3424
400.64, 57.0201
402.942, 55.7324
404.417, 54.101
406.194, 50.763
407.081, 49.4691
407.528, 48.1565
409.294, 46.7125
412.817, 45.4186
417.215, 44.766
421.61, 44.5185
426.005, 44.316
430.4, 44.2935
434.794, 44.226
439.189, 44.046
443.583, 44.0685
447.977, 44.0685
452.373, 43.7984
456.767, 43.7309
461.162, 43.5734
465.557, 43.3709
469.949, 43.7309
474.345, 43.5059
478.739, 43.4159
483.132, 43.5734
487.525, 43.7309
491.919, 43.7309
496.313, 43.7759
498.95, 43.7309

File: x0.000y0.520.csv
100.789, 54.0372
105.181, 54.3747
109.572, 54.8248
113.963, 55.4324
118.356, 55.6124
122.75, 55.6349
127.144, 55.5449
131.537, 55.8149
135.931, 55.8149
140.324, 55.9724
144.719, 55.8149
149.112, 56.0175
153.506, 55.9499
157.901, 55.8149
162.293, 56.1525
166.686, 56.355
171.079, 56.4225
175.472, 56.67
179.866, 56.67
184.261, 56.4675
188.657, 56.22
193.051, 56.22
197.445, 56.22
201.837, 56.58
206.227, 57.2776
208.857, 58.339
212.992, 59.6115
215.618, 60.7576
217.982, 61.2121
220.708, 60.5236
222.032, 59.5729
224.323, 58.4703
227.318, 57.3676
231.714, 56.8951
236.108, 56.9401
240.792, 57.5514
244.184, 58.5378
248.394, 59.8429
251.15, 60.9777
254.28, 62.4404
256.404, 64.1281
257.398, 65.7837
259.089, 67.6214
261.267, 69.6574
264.148, 70.8093
272.071, 68.484
273.836, 67.2464
275.6, 66.0987
277.659, 64.7898
279.131, 63.4771
281.423, 62.2507
285.296, 61.2831
289.692, 60.9456
294.087, 60.7205
298.483, 60.4055
302.881, 59.7754
307.279, 59.0328
311.677, 58.4478
316.072, 58.3127
320.465, 58.3352
324.858, 58.5378
329.25, 58.9428
333.64, 59.6179
338.033, 59.8204
342.424, 60.293
346.815, 60.743
351.208, 61.0356
355.605, 60.428
359.999, 60.563
364.389, 61.1256
369.072, 61.8832
372.737, 61.3112
375.676, 59.7079
380.219, 59.2579
384.615, 58.8978
389.009, 58.8528
392.874, 59.2129
394.713, 60.2986
396.903, 61.5531
399.032, 62.3225
403.059, 60.7655
403.945, 59.5954
405.855, 58.489
410.109, 57.4801
414.506, 57.0301
418.898, 57.2551
423.292, 57.2551
427.688, 57.0526
432.081, 57.1651
436.476, 56.9401
440.871, 56.8951
445.265, 56.8951
449.659, 56.7825
454.054, 56.7375
458.448, 56.7825
462.842, 56.6475
467.235, 56.8501
471.63, 56.6475
476.024, 56.7375
480.418, 56.67
484.812, 56.67
489.206, 56.67
493.6, 56.715
497.114, 56.8951

File: x0.000y0.670.csv
101.869, 69.4966
109.043, 69.9748
116.072, 70.2842
123.102, 70.4108
130.132, 70.4389
137.161, 70.6218
144.192, 70.6218
151.222, 70.6218
158.252, 70.6921
165.282, 70.7624
172.312, 70.8468
179.343, 70.8468
186.374, 70.7905
193.405, 70.6077
200.434, 70.889
205.703, 71.4938
209.652, 72.3995
213.602, 73.2377
218.872, 73.7862
223.492, 72.722
224.594, 72.047
229.432, 71.3719
236.462, 71.3672
242.171, 71.9944
245.681, 72.8345
248.752, 73.7159
252.482, 74.4473
254.895, 75.1786
256.208, 76.06
257.3, 77.0632
259.182, 78.3702
260.8, 79.5948
264.971, 80.1948
269.372, 79.0603
272.891, 78.4603
275.973, 77.457
276.857, 76.5006
279.061, 75.4036
283.899, 74.4848
290.054, 73.9128
297.085, 73.8706
303.24, 73.3221
309.397, 72.3939
316.429, 72.0985
323.458, 72.3657
330.488, 72.4642
337.515, 73.0408
344.543, 73.5471
351.572, 73.6737
358.604, 73.5049
363.875, 73.7722
367.61, 74.0909
370.903, 74.166
376.182, 73.1721
382.337, 72.5486
389.369, 72.3798
394.726, 72.8946
396.607, 73.6364
399.463, 74.4848
401.339, 73.9394
401.932, 73.6364
403.645, 73.1252
408.264, 72.1648
414.858, 71.7188
421.891, 71.3812
428.92, 71.6063
435.949, 71.7328
442.982, 71.3812
450.011, 71.55
457.042, 71.4938
464.071, 71.7328
471.103, 71.5078
478.134, 71.3672
485.164, 71.4656
492.194, 71.6203
497.466, 71.6625

File: x0.000y1.000.csv
101.378, 88.1177
108.936, 88.0896
115.967, 88.0614
122.996, 88.2865
130.026, 88.2865
137.057, 88.2865
144.087, 88.2865
151.118, 88.2865
158.148, 88.2865
165.179, 88.2865
172.209, 88.2865
179.24, 88.2865
186.271, 88.2021
193.302, 88.0896
200.331, 88.2162
207.361, 88.2865
214.392, 88.2865
221.422, 88.2865
228.453, 88.2865
234.602, 88.6428
236.616, 89.9967
237.919, 91.8182
238.501, 93.4848
240.777, 95.3909
243.234, 93.6364
244.249, 92.1495
244.696, 90.7618
244.879, 89.6479
249.543, 88.4412
256.575, 88.2865
263.605, 88.2865
270.636, 88.2865
277.666, 88.2865
284.697, 88.2865
291.727, 88.2865
298.757, 88.2865
305.788, 88.2865
312.818, 88.2865
319.849, 88.2865
326.879, 88.2865
333.91, 88.2865
340.94, 88.2865
347.971, 88.2865
355.001, 88.2865
362.032, 88.2865
369.062, 88.2865
376.093, 88.2865
383.123, 88.2302
390.153, 88.2865
397.184, 88.2865
404.214, 88.2865
411.245, 88.2865
418.275, 88.2865
425.306, 88.3146
432.335, 88.5678
439.365, 88.5959
446.397, 88.3849
453.427, 88.3849
460.458, 88.2583
467.49, 88.0614
474.521, 87.8927
481.55, 88.1458
488.581, 88.1177
495.612, 87.9771
499.567, 87.8927