Folder: mowsse_alloys/raman/raman_data/MoWS2

Note: raman/raman_data/MoWS2/x0.000y0.000.json
{"version":[4,2],"axesColl":[{"name":"XY","type":"XYAxes","isLogX":false,"isLogY":false,"noRotation":false,"calibrationPoints":[{"px":32.83429895712631,"py":471.9930475086906,"dx":"100","dy":"0","dz":null},{"px":413.3603707995365,"py":470.82039397450757,"dx":"450","dy":"0","dz":null},{"px":32.83429895712631,"py":471.9930475086906,"dx":"100","dy":"0","dz":null},{"px":32.247972190034766,"py":11.140208574739281,"dx":"450","dy":"100","dz":null}]}],"datasetColl":[{"name":"Default Dataset","axesName":"XY","colorRGB":[200,0,0,255],"metadataKeys":[],"data":[{"x":37,"y":97,"value":[104.27032666397787,81.3662645343598]},{"x":41,"y":97,"value":[107.9494293973963,81.36358979591313]},{"x":45,"y":97,"value":[111.62853213081473,81.36091505746643]},{"x":49,"y":97,"value":[115.30763486423317,81.35824031901974]},{"x":53,"y":97,"value":[118.98673759765158,81.35556558057306]},{"x":57,"y":97,"value":[122.66584033107,81.35289084212637]},{"x":61,"y":97,"value":[126.34494306448843,81.35021610367968]},{"x":65,"y":97,"value":[130.02404579790687,81.347541365233]},{"x":69,"y":97,"value":[133.7031485313253,81.34486662678631]},{"x":73,"y":97,"value":[137.38225126474373,81.34219188833963]},{"x":77,"y":97,"value":[141.06135399816213,81.33951714989294]},{"x":81,"y":96.625,"value":[144.74089555585698,81.41821297012906]},{"x":85,"y":96.25,"value":[148.42043711355183,81.4969087903652]},{"x":89,"y":96.5,"value":[152.09924729745262,81.43998701279662]},{"x":93,"y":96.5,"value":[155.77835003087108,81.43731227434995]},{"x":97,"y":96.625,"value":[159.45730648953068,81.40751401634232]},{"x":101,"y":96.5,"value":[163.13655549770792,81.43196279745656]},{"x":105,"y":96.625,"value":[166.81551195636754,81.40216453944895]},{"x":109,"y":96.5,"value":[170.49476096454475,81.42661332056319]},{"x":113,"y":96.5,"value":[174.1738636979632,81.4239385821165]},{"x":117,"y":96.5,"value":[177.85296643138162,81.42126384366982]},{"x":121,"y":96,"value":[181.53265426383527,81.52708318346689]},{"x":125,"y":96,"value":[185.2117569972537,81.5244084450202]},{"x":129,"y":96,"value":[188.8908597306721,81.52173370657351]},{"x":133,"y":96,"value":[192.56996246409057,81.51905896812683]},{"x":137,"y":96,"value":[196.24906519750897,81.51638422968014]},{"x":141,"y":96,"value":[199.92816793092743,81.51370949123344]},{"x":145,"y":96,"value":[203.60727066434583,81.51103475278677]},{"x":149,"y":96,"value":[207.28637339776424,81.50836001434007]},{"x":153,"y":96,"value":[210.9654761311827,81.50568527589338]},{"x":157,"y":96,"value":[214.6445788646011,81.5030105374467]},{"x":161,"y":96,"value":[218.32368159801956,81.50033579900001]},{"x":165,"y":96,"value":[222.00278433143797,81.49766106055333]},{"x":169,"y":95.75,"value":[225.68217961437398,81.54923336122852]},{"x":173,"y":95.75,"value":[229.36128234779244,81.54655862278183]},{"x":177,"y":96,"value":[233.04009253169323,81.48963684521327]},{"x":181,"y":96,"value":[236.7191952651117,81.48696210676658]},{"x":185,"y":96,"value":[240.3982979985301,81.48428736831988]},{"x":189,"y":9

Note: raman/raman_data/MoWS2/x0.420y0.000.json
{"version":[4,2],"axesColl":[{"name":"XY","type":"XYAxes","isLogX":false,"isLogY":false,"noRotation":false,"calibrationPoints":[{"px":32.83429895712631,"py":471.9930475086906,"dx":"100","dy":"0","dz":null},{"px":413.3603707995365,"py":470.82039397450757,"dx":"450","dy":"0","dz":null},{"px":32.83429895712631,"py":471.9930475086906,"dx":"100","dy":"0","dz":null},{"px":32.247972190034766,"py":11.140208574739281,"dx":"450","dy":"100","dz":null}]}],"datasetColl":[{"name":"Default Dataset","axesName":"XY","colorRGB":[200,0,0,255],"metadataKeys":[],"data":[{"x":35.5,"y":244.1,"value":[102.71852700278635,49.448309741964614]},{"x":40.5,"y":244,"value":[107.31752243936643,49.466665134555]},{"x":45.5,"y":244,"value":[111.91640085613946,49.46332171149664]},{"x":50.5,"y":244,"value":[116.5152792729125,49.45997828843828]},{"x":55.5,"y":244,"value":[121.11415768968553,49.456634865379925]},{"x":60.5,"y":244,"value":[125.71303610645856,49.453291442321564]},{"x":65.5,"y":243.8,"value":[130.31214856284566,49.493345650560705]},{"x":70.5,"y":243.2,"value":[134.91172909846097,49.62019512139486]},{"x":75.5,"y":243,"value":[139.51084155484807,49.660249329634]},{"x":80.5,"y":243,"value":[144.10971997162113,49.65690590657564]},{"x":85.5,"y":243,"value":[148.70859838839414,49.65356248351728]},{"x":90.5,"y":242.7,"value":[153.30782786458832,49.71531550740517]},{"x":95.5,"y":243,"value":[157.9063552219402,49.64687563740056]},{"x":100.5,"y":242.7,"value":[162.50558469813438,49.70862866128846]},{"x":105.5,"y":242.4,"value":[167.10481417432854,49.770381685176346]},{"x":110.5,"y":242,"value":[171.70416067032974,49.85383352471299]},{"x":115.5,"y":242,"value":[176.30303908710277,49.850490101654636]},{"x":120.5,"y":242,"value":[180.9019175038758,49.847146678596275]},{"x":125.5,"y":242,"value":[185.50079592064884,49.843803255537914]},{"x":130.5,"y":242,"value":[190.09967433742187,49.84045983247955]},{"x":135.5,"y":241.1,"value":[194.6996059324583,50.03240575025996]},{"x":140.5,"y":240.9,"value":[199.29871838884543,50.0724599584991]},{"x":145.5,"y":241,"value":[203.8974797858114,50.04741771979199]},{"x":150.5,"y":240.2,"value":[208.49729436104082,50.21766482192364]},{"x":155.5,"y":240.5,"value":[213.0958217183927,50.14922495191903]},{"x":160.5,"y":241,"value":[217.69411503613054,50.03738745061691]},{"x":165.5,"y":241.4,"value":[222.2925253736754,49.94724876496355]},{"x":170.5,"y":242,"value":[226.89070167160617,49.81371244801268]},{"x":175.5,"y":242.5,"value":[231.48899498934395,49.701874946710575]},{"x":180.5,"y":243,"value":[236.0872883070818,49.590037445408456]},{"x":185.5,"y":243,"value":[240.68616672385485,49.586694022350095]},{"x":190.5,"y":243,"value":[245.28504514062786,49.58335059929174]},{"x":195.5,"y":243,"value":[249.88392355740092,49.58000717623338]},{"x":200.5,"y":243,"value":[254.48280197417392,49.57666375317502]},{"x":205.5,"y":242.9,"value":[259.081797410754,49.59501914576541]},{"x":210.5,"y":242,"value":[263.68172900579043,49.786965063545814]},{"x":215.5,"y":242,"va

File: MoWS2_A1.csv
0, 402.656
0.12761, 403.53
0.199536, 404.3
0.287703, 405.957
0.419954, 407.609
0.529002, 409.263
0.610209, 412.699
0.658933, 412.693
0.770302, 414.348
0.87935, 414.78
1, 417.767

File: MoWS2_d.csv
0.12993, 360.752
0.201856, 360.855
0.290023, 360.846
0.419954, 362.72
0.531323, 362.152
0.610209, 361.032
0.658933, 361.693
0.772622, 361.459
0.881671, 360.669

File: MoWS2_MoS2_E1.csv
0.00232019, 384.655
0.132251, 383.974
0.199536, 383.522
0.287703, 382.179
0.419954, 381.72
0.529002, 381.486
0.610209, 380.254
0.661253, 378.36
0.767981, 373.904
0.87935, 372.447

File: MoWS2_WS2_E1.csv
0.199536, 348.633
0.290023, 351.734
0.419954, 352.387
0.529002, 352.708
0.610209, 352.921
0.661253, 353.36
0.767981, 354.459
0.87935, 353.669
1, 354.878

File: x0.000y0.000.csv
102.559, 81.3119
107.159, 81.2901
111.76, 81.2901
116.36, 81.3336
120.96, 81.3988
125.56, 81.3988
130.16, 81.3988
134.76, 81.4423
139.361, 81.5076
143.961, 81.5076
148.561, 81.5076
153.161, 81.5076
157.761, 81.5076
162.362, 81.5076
166.962, 81.5076
171.562, 81.5076
176.162, 81.5076
180.762, 81.5076
185.362, 81.5076
189.963, 81.6163
194.563, 81.5945
199.163, 81.5076
203.763, 81.5076
208.363, 81.551
212.964, 81.5945
217.564, 81.5945
222.164, 81.6163
226.764, 81.6598
231.364, 81.6598
235.965, 81.6163
240.565, 81.6163
245.165, 81.6163
249.765, 81.6163
254.365, 81.6163
258.965, 81.6163
263.566, 81.6815
268.166, 81.725
272.766, 81.725
277.366, 81.725
281.966, 81.725
286.567, 81.725
291.167, 81.8337
295.767, 81.8337
300.367, 81.9207
304.967, 81.8989
309.567, 81.8554
314.168, 81.8337
318.768, 81.8337
323.368, 81.8337
327.968, 81.8337
332.568, 81.8337
337.169, 81.8337
341.769, 81.8337
346.369, 81.8337
350.969, 81.8772
355.569, 81.8989
360.17, 81.9424
364.77, 82.0511
369.37, 82.2033
373.97, 82.4425
378.57, 82.7251
381.79, 83.9807
382.864, 85.6385
383.17, 86.9431
383.547, 89.2462
384.017, 90.747
385.193, 92.5813
386.604, 91.0805
387.771, 88.465
387.771, 87.3779
387.771, 86.2908
388.231, 85.1493
388.691, 84.0079
391.451, 82.6599
395.131, 83.2107
397.278, 84.4065
398.351, 85.7473
398.811, 86.7256
399.731, 89.1173
400.651, 91.2915
400.952, 93.8597
401.449, 95.2648
402.599, 96.7501
404.951, 94.8047
405.251, 93.4657
405.251, 92.3786
405.711, 91.0016
406.478, 88.0845
407.091, 86.9431
407.551, 85.9103
408.471, 84.7689
410.312, 83.4915
414.452, 82.6164
419.052, 82.2903
423.652, 82.2685
428.252, 82.2903
432.852, 82.4642
437.453, 82.6164
442.053, 82.8338
446.653, 83.0078
451.253, 82.9643
455.853, 82.5947
460.454, 82.2685
465.054, 82.0076
469.654, 81.8337
474.254, 81.7467
477.934, 81.6887

File: x0.200y0.000.csv
103.264, 65.3912
106.943, 65.3885
110.623, 65.413
114.302, 65.4103
117.981, 65.4076
121.66, 65.4049
125.339, 65.4023
129.018, 65.3996
132.698, 65.4512
136.376, 65.3942
140.056, 65.4729
143.736, 65.6059
147.415, 65.6032
151.094, 65.6005
154.773, 65.5978
158.452, 65.5952
162.131, 65.5654
165.81, 65.5627
169.489, 65.5329
173.169, 65.5573
176.848, 65.6089
180.527, 65.6605
184.206, 65.6307
187.886, 65.6551
191.565, 65.6796
195.244, 65.6769
198.923, 65.6742
202.602, 65.6716
206.282, 65.7774
209.961, 65.8018
213.64, 65.8534
217.32, 65.8507
220.998, 65.7667
224.677, 65.7369
228.356, 65.6528
232.035, 65.6502
235.714, 65.6204
239.393, 65.5906
243.072, 65.5337
246.751, 65.5852
250.43, 65.6097
254.109, 65.607
257.789, 65.6314
261.467, 65.5745
265.147, 65.599
268.826, 65.6234
272.505, 65.6207
276.184, 65.6181
279.863, 65.6154
283.542, 65.6127
287.221, 65.61
290.901, 65.6345
294.58, 65.7403
298.26, 65.7648
301.939, 65.8163
305.618, 65.7865
309.297, 65.7567
312.976, 65.7541
316.655, 65.7243
320.334, 65.6402
324.013, 65.6647
327.692, 65.5806
331.372, 65.7407
335.051, 65.738
338.73, 65.7625
342.41, 65.8683
346.09, 66.1097
349.77, 66.2155
357.129, 66.3729
360.808, 66.4245
364.487, 66.3947
368.166, 66.3649
371.845, 66.4165
375.526, 66.6308
379.3, 67.1705
381.053, 68.1457
381.522, 69.8813
382.148, 71.024
382.527, 71.9956
385.219, 73.1334
386.131, 71.8308
387.033, 68.5392
387.946, 67.2456
390.241, 66.3489
393.921, 66.5903
396.961, 67.3747
398.991, 68.5938
400.147, 69.8135
400.843, 70.9522
401.77, 72.2263
402.39, 73.5549
403.624, 74.9102
405.472, 76.482
406.382, 74.7455
407.295, 73.4429
407.745, 71.5439
409.115, 69.7798
410.718, 68.6395
412.323, 67.8246
415.997, 66.8726
419.674, 66.3275
423.352, 66.2163
427.031, 66.2679
430.71, 66.2381
434.39, 66.3168
438.069, 66.2327
441.748, 66.23
445.426, 66.146
449.105, 66.0077
452.783, 65.9237
456.461, 65.6769
460.14, 65.62
463.818, 65.4817
467.497, 65.4519
471.176, 65.4492
474.856, 65.4736
478.075, 65.4713

File: x0.420y0.000.csv
102.719, 49.4483
107.318, 49.4667
111.916, 49.4633
116.515, 49.46
121.114, 49.4566
125.713, 49.4533
130.312, 49.4933
134.912, 49.6202
139.511, 49.6602
144.11, 49.6569
148.709, 49.6536
153.308, 49.7153
157.906, 49.6469
162.506, 49.7086
167.105, 49.7704
171.704, 49.8538
176.303, 49.8505
180.902, 49.8471
185.501, 49.8438
190.1, 49.8405
194.7, 50.0324
199.299, 50.0725
203.897, 50.0474
208.497, 50.2177
213.096, 50.1492
217.694, 50.0374
222.293, 49.9472
226.891, 49.8137
231.489, 49.7019
236.087, 49.59
240.686, 49.5867
245.285, 49.5834
249.884, 49.58
254.483, 49.5767
259.082, 49.595
263.682, 49.787
268.281, 49.7836
272.879, 49.7803
277.478, 49.7769
282.077, 49.7736
286.676, 49.7702
291.275, 49.832
295.875, 49.9805
300.474, 49.9989
305.073, 49.9739
309.672, 49.9705
314.27, 49.9238
318.869, 49.9638
323.468, 49.9605
328.067, 49.9571
332.666, 49.9538
337.265, 50.0373
341.866, 50.3594
346.468, 50.9636
350.609, 51.2427
355.667, 51.1956
360.265, 51.0187
364.864, 50.9502
369.462, 50.8601
374.063, 51.2256
377.286, 51.9285
379.59, 52.849
382.201, 53.697
383.956, 52.2763
385.101, 51.2719
387.856, 50.4995
392.454, 50.4311
396.596, 50.8567
399.819, 51.7132
401.358, 52.6886
402.587, 53.2663
403.512, 54.1607
404.438, 55.3625
405.363, 56.3745
406.977, 57.1147
410.268, 56.2986
411.795, 55.2125
413.629, 54.072
415.462, 52.8772
417.295, 51.7096
420.049, 50.7365
424.647, 50.4294
429.245, 50.3176
433.844, 50.3142
438.442, 50.1373
443.04, 50.0688
447.638, 49.9353
452.237, 49.8669
456.835, 49.6899
461.434, 49.6432
466.032, 49.6399
470.631, 49.6365
475.23, 49.6332
480.059, 49.6297

File: x0.530y0.000.csv
101.757, 41.6374
106.354, 41.4388
110.953, 41.4354
115.552, 41.4321
120.152, 41.5589
124.751, 41.6424
129.35, 41.639
133.949, 41.6357
138.548, 41.7409
143.148, 41.8026
147.747, 41.8427
152.346, 41.8393
156.944, 41.836
161.543, 41.8326
166.142, 41.8293
170.742, 41.9778
175.341, 41.9528
179.939, 41.9277
184.539, 41.9678
189.138, 42.0296
193.737, 42.1564
198.337, 42.2399
202.936, 42.2365
207.534, 42.2332
212.133, 42.2298
216.732, 42.2048
221.33, 42.0278
225.928, 41.9377
230.527, 41.8042
235.125, 41.7791
239.724, 41.7758
244.323, 41.7724
248.922, 41.7691
253.521, 41.7658
258.12, 41.7624
262.719, 41.8025
267.318, 41.8642
271.917, 41.8609
276.516, 41.8575
281.115, 41.8759
285.714, 41.9593
290.313, 41.956
294.912, 41.9527
299.512, 42.1229
304.111, 42.1196
308.709, 42.0511
313.308, 42.0478
317.907, 42.0444
322.506, 42.1279
327.105, 42.1245
331.704, 42.1429
336.303, 42.183
340.903, 42.4183
345.505, 42.9791
350.107, 43.4748
353.537, 43.4791
356.775, 43.3724
361.143, 43.2064
365.741, 43.138
370.34, 43.113
374.941, 43.4785
378.625, 44.3148
380.509, 44.8731
382.009, 45.2254
383.877, 44.5173
384.601, 43.8404
386.894, 42.7971
391.492, 42.5334
396.092, 42.8121
399.775, 43.4677
402.539, 44.3969
404.849, 46.2668
405.927, 47.2967
407.492, 48.2992
409.742, 48.8277
412.217, 48.1058
414.051, 47.0738
416.647, 45.119
417.867, 44.0332
420.467, 43.0006
424.604, 42.5527
429.203, 42.4626
433.801, 42.3074
438.399, 42.2823
442.997, 42.1054
447.596, 42.0586
452.194, 41.9468
456.792, 41.835
461.391, 41.8316
465.99, 41.8283
470.589, 41.8249
475.188, 41.8216
480.131, 41.6553

File: x0.610y0.000.csv
103.094, 33.8465
106.773, 33.8439
110.452, 33.8412
114.132, 33.8385
117.811, 33.8358
121.49, 33.8332
125.169, 33.8305
128.848, 33.9092
132.529, 34.0964
136.207, 34.0123
139.886, 34.0368
143.566, 34.1426
147.245, 34.167
150.925, 34.1915
154.604, 34.2431
158.282, 34.1048
161.962, 34.2106
165.641, 34.235
169.321, 34.4222
173.001, 34.4467
176.679, 34.2541
180.358, 34.2243
184.037, 34.2217
187.717, 34.3817
191.397, 34.5689
195.078, 34.8375
198.756, 34.7534
202.435, 34.6423
206.114, 34.6396
209.793, 34.6369
213.471, 34.4715
217.15, 34.3603
220.828, 34.1949
224.507, 34.1922
228.186, 34.1896
231.865, 34.1869
235.544, 34.1842
239.223, 34.1815
242.903, 34.1789
246.582, 34.1762
250.261, 34.1735
253.94, 34.1708
257.619, 34.1682
261.298, 34.1655
264.977, 34.1628
268.656, 34.1601
272.336, 34.2388
276.015, 34.2633
279.695, 34.3691
283.374, 34.3393
287.053, 34.3638
290.732, 34.3611
294.412, 34.5211
298.091, 34.5727
301.771, 34.57
305.45, 34.5674
309.129, 34.5647
312.808, 34.562
316.487, 34.5593
320.166, 34.5567
323.845, 34.554
327.524, 34.5513
331.204, 34.6843
334.884, 34.763
338.563, 34.8417
342.244, 35.2187
345.927, 35.8128
349.608, 36.3254
352.37, 36.7031
356.966, 36.1845
360.643, 35.8834
364.356, 35.7846
368.001, 35.7425
371.681, 35.9025
375.362, 36.3338
379.044, 36.8465
383.178, 35.9575
384.554, 35.2151
388.232, 34.9683
391.912, 35.1284
395.592, 35.3155
398.814, 35.9099
402.038, 36.8027
404.343, 37.8317
406.189, 38.9695
408.494, 40.0528
413.097, 40.7275
415.391, 39.6681
416.305, 38.6457
417.22, 37.7409
418.134, 36.6915
420.427, 35.5687
424.103, 34.9965
427.782, 34.8853
431.46, 34.6927
435.139, 34.6901
438.817, 34.4975
442.496, 34.4677
446.175, 34.4651
449.854, 34.3539
453.532, 34.2427
457.211, 34.24
460.891, 34.2374
464.57, 34.2347
468.249, 34.232
471.928, 34.2565
475.608, 34.3623

File: x0.770y0.000.csv
103.479, 18.3904
108.079, 18.2817
112.68, 18.347
117.28, 18.3687
121.88, 18.3904
126.48, 18.4557
131.08, 18.6513
135.68, 18.847
140.281, 18.9122
144.881, 19.2384
149.481, 19.4558
154.081, 19.2166
158.681, 19.1079
163.282, 19.2166
167.882, 19.6515
172.482, 20.1515
177.082, 19.7384
181.682, 19.2384
186.283, 19.2166
190.883, 19.7167
195.483, 20.4777
200.083, 20.2602
204.683, 19.7819
209.283, 19.8037
213.884, 19.6732
218.484, 19.3253
223.084, 19.1079
227.684, 19.1297
232.284, 19.1297
236.885, 19.1514
241.485, 19.1079
246.085, 19.1079
250.685, 19.1079
255.285, 19.1079
259.885, 19.1514
264.486, 19.3036
269.086, 19.3253
273.686, 19.3253
278.286, 19.3471
282.886, 19.3688
287.487, 19.521
292.087, 19.7167
296.687, 19.8689
301.287, 20.0211
305.887, 20.0428
310.488, 20.1081
315.088, 20.1733
319.688, 20.282
324.288, 20.4342
328.888, 20.4777
333.488, 20.6951
338.089, 21.0864
342.229, 21.9072
346.369, 23.0867
350.969, 23.9999
354.599, 24.6196
356.94, 23.5131
359.249, 22.6736
363.85, 22.304
368.45, 22.391
372.742, 22.9599
377.344, 22.6591
380.936, 21.8534
385.033, 21.1618
388.545, 21.4385
391.451, 21.8257
396.051, 22.2605
400.651, 22.7171
404.331, 23.71
406.631, 24.9783
408.931, 26.3553
410.312, 27.6417
411.232, 28.8375
412.152, 30.0333
413.992, 31.3922
416.292, 32.3706
417.212, 31.2835
417.212, 30.1964
417.212, 29.1093
418.132, 26.9351
418.592, 25.6305
419.665, 23.3476
421.812, 21.9706
425.492, 21.0864
430.092, 20.6733
434.693, 20.4124
439.293, 20.282
443.893, 20.1298
448.493, 19.9993
453.093, 19.9776
457.693, 19.9776
462.294, 19.9776
466.894, 19.9776
471.494, 19.9993
476.094, 20.1298

File: x1.000y0.000.csv
102.925, 2.38324
106.604, 2.35345
110.282, 2.18803
113.961, 2.18536
117.64, 2.15556
121.319, 2.15288
124.998, 2.17733
128.678, 2.25603
132.357, 2.28048
136.036, 2.25068
139.716, 2.3565
143.395, 2.35382
147.074, 2.35115
150.752, 2.23998
154.431, 2.18306
158.111, 2.28888
161.79, 2.34045
165.47, 2.50051
169.151, 2.76908
172.831, 2.98339
176.51, 2.87222
180.187, 2.57119
183.866, 2.51426
187.545, 2.53871
191.225, 2.61741
194.903, 2.45199
198.581, 2.3137
202.26, 2.31103
205.939, 2.30835
209.619, 2.38705
213.299, 2.46574
216.977, 2.30033
220.656, 2.32478
224.336, 2.51197
228.017, 2.8619
231.696, 2.75073
235.374, 2.53107
239.052, 2.44702
242.731, 2.2816
246.41, 2.27893
250.089, 2.27625
253.768, 2.3007
257.448, 2.48789
261.127, 2.53947
264.807, 2.53679
268.486, 2.50699
272.164, 2.47719
275.844, 2.47452
279.523, 2.58034
283.203, 2.65903
286.882, 2.71061
290.563, 3.00629
294.244, 3.43759
297.923, 3.2993
301.6, 2.97114
308.962, 3.61676
316.325, 4.47936
320.007, 5.10053
323.687, 5.20635
327.364, 4.87819
331.043, 4.82127
334.725, 5.44243
337.95, 6.33517
340.715, 7.38194
342.253, 8.35727
344.87, 10.4529
345.795, 11.3745
346.877, 13.0553
346.259, 12.1878
347.804, 14.3807
348.73, 15.465
349.656, 16.6336
352.265, 17.2285
354.554, 15.3281
355.927, 14.0795
356.99, 12.18
357.29, 10.9502
357.74, 9.14164
358.648, 7.02534
359.716, 6.06619
360.936, 4.82666
364.15, 3.84787
367.827, 3.41122
371.505, 3.24581
375.183, 3.05327
378.862, 3.05059
382.541, 3.04792
386.219, 2.90962
389.898, 2.82558
393.578, 2.87715
397.257, 2.87448
400.936, 2.84468
404.615, 2.9505
408.296, 3.27331
411.058, 3.7324
413.055, 4.58082
415.213, 6.71298
417.981, 8.22989
419.504, 6.4567
420.417, 5.22644
421.637, 4.05019
424.851, 3.12565
428.529, 2.82462
432.208, 2.79482
435.887, 2.79214
439.566, 2.78947
443.245, 2.7868
446.924, 2.78412
450.603, 2.78145
454.282, 2.77877
457.962, 2.7761
461.641, 2.77342
465.32, 2.77075
468.999, 2.82232
472.679, 2.90102
476.358, 2.97971