Folder: mowsse_alloys/raman/raman_data/MoWSSe

File: x0.500y0.500.csv
52.3788, 4.91879
57.871, 4.88767
63.369, 4.94235
68.8653, 4.9716
74.3605, 4.98497
79.8589, 5.046
85.3619, 5.17375
90.8582, 5.20301
96.3532, 5.2132
101.848, 5.22021
107.341, 5.19862
112.836, 5.21517
118.332, 5.24124
123.828, 5.25779
129.322, 5.25845
134.816, 5.2591
140.311, 5.25976
145.805, 5.26042
151.3, 5.27378
156.797, 5.31575
162.295, 5.3736
167.785, 5.30118
173.271, 5.18744
178.765, 5.17539
184.259, 5.17605
189.757, 5.23072
195.251, 5.21867
200.744, 5.20662
206.242, 5.25494
211.737, 5.27148
217.233, 5.30391
222.731, 5.35223
228.229, 5.41008
233.724, 5.41392
239.224, 5.49401
244.729, 5.6599
250.236, 5.84802
254.602, 6.00532
259.066, 6.29294
264.565, 6.72422
268.638, 6.29408
272.217, 5.90149
277.699, 5.71468
283.184, 5.58506
288.674, 5.52217
294.171, 5.56096
299.671, 5.65058
305.171, 5.73067
310.666, 5.74086
316.164, 5.79554
321.664, 5.88516
327.16, 5.89853
332.646, 5.77527
340.72, 5.48931
347.587, 5.92075
352.061, 6.35191
360.134, 6.02957
365.607, 5.71884
371.09, 5.54791
376.585, 5.55493
382.09, 5.72081
387.574, 5.5626
393.062, 5.46793
398.565, 5.60204
404.098, 6.17464
407.144, 6.93266
409.254, 7.79416
411.706, 8.6557
413.698, 7.79469
414.678, 7.12495
415.661, 6.50306
417.567, 5.92205
423.027, 5.41432
428.513, 5.29423
434.006, 5.27265
439.495, 5.20658
444.989, 5.19135
450.483, 5.19201
455.976, 5.1736
461.47, 5.17108
466.966, 5.19398
472.46, 5.19464
477.954, 5.19529
483.453, 5.25314
488.948, 5.26651
494.442, 5.26717
497.941, 5.30254