Folder: mowsse_alloys/raman/raman_data/MoWSe2

File: MoWSe2_A1.csv
0, 240.426
0.137705, 242.642
0.209836, 243.085
0.327869, 245.745
0.390164, 246.188
0.527869, 246.188
0.727869, 247.074
0.809836, 247.961
0.937705, 249.734
1, 249.734

File: x0.000y1.000.csv
221.066, 80.4482
222.317, 80.4654
223.567, 80.4826
224.818, 80.4999
226.069, 80.5171
227.319, 80.5343
228.57, 80.5515
229.82, 80.5688
231.071, 80.586
232.322, 80.7073
233.572, 80.7505
234.823, 80.9498
236.073, 81.0711
237.324, 81.5565
238.449, 82.6385
239.137, 84.046
239.387, 85.7077
239.925, 87.9911
240.2, 89.4254
240.701, 90.6028
241.326, 89.3109
241.826, 86.4566
242.014, 84.7034
242.326, 83.5155
243.077, 82.0519
244.327, 81.2368
245.578, 81.15
246.828, 80.9331
248.079, 80.9503
249.33, 80.9415
250.58, 80.8547
251.831, 80.898
253.081, 80.9412
254.332, 81.0104
255.583, 80.9496
256.833, 81.0709
258.084, 81.0881
259.334, 81.0793
260.585, 80.9925
261.836, 81.0098
263.086, 81.027
264.337, 81.0442
265.587, 81.0614
266.838, 81.0787
268.089, 81.0959
268.964, 81.1079

File: x0.210y1.000.csv
221.316, 63.6745
222.567, 63.6917
223.817, 63.709
225.068, 63.7262
226.319, 63.7694
227.569, 63.7606
230.07, 64.0552
231.321, 64.0724
233.822, 64.1069
235.073, 64.1241
237.574, 64.2886
238.825, 64.4359
240.075, 64.9473
241.201, 66.0943
242.326, 68.0476
243.002, 68.822
243.444, 67.9328
243.827, 66.8024
244.702, 65.3947
245.828, 64.5584
247.079, 64.3935
248.329, 64.3067
249.58, 64.3239
250.83, 64.3411
252.081, 64.3584
253.332, 64.3756
254.582, 64.3928
255.833, 64.41
257.083, 64.4273
258.334, 64.4445
259.585, 64.4617
260.835, 64.2709
262.086, 64.2361
263.336, 64.2533
264.587, 64.2705
265.838, 64.3138
267.088, 64.305
268.339, 64.4523

File: x0.390y1.000.csv
221.566, 47.2724
223.317, 47.3151
225.068, 47.3392
226.819, 47.3633
228.57, 47.3874
230.321, 47.4116
232.071, 47.4357
233.822, 47.4598
235.573, 47.4839
237.324, 47.4895
239.075, 47.5321
240.826, 47.6677
242.576, 48.0077
243.827, 48.7031
244.327, 49.512
244.702, 50.4059
245.728, 51.3434
246.495, 50.4089
246.912, 49.5909
247.579, 48.8198
248.829, 48.1496
250.58, 47.9136
252.331, 47.7147
254.082, 47.7389
255.833, 47.763
257.584, 47.7871
259.334, 47.8112
261.085, 47.8353
262.836, 47.8594
264.587, 47.8836
266.338, 47.9077
268.089, 47.9318
269.089, 47.9456

File: x0.530y1.000.csv
220.691, 38.8253
221.691, 38.8391
222.692, 38.8529
223.692, 38.8667
224.693, 38.8805
225.693, 38.8942
226.694, 38.908
227.694, 38.9218
228.695, 38.9356
229.695, 38.9494
230.696, 38.9631
231.696, 38.9769
232.697, 38.9907
233.697, 39.0045
234.698, 39.0183
235.698, 39.032
236.699, 39.0458
237.699, 39.0596
238.7, 39.0734
239.7, 39.1847
241.701, 39.4074
242.701, 39.7463
243.702, 40.4103
244.577, 41.7121
245.453, 42.4178
246.203, 41.9729
246.828, 41.0061
247.704, 40.2053
248.704, 39.6989
249.705, 39.5826
250.705, 39.4989
251.706, 39.5126
256.708, 39.3214
257.709, 39.3352
258.709, 39.349
259.71, 39.3628
260.71, 39.3766
261.711, 39.3903
262.711, 39.4041
263.712, 39.4179
264.712, 39.4317
265.712, 39.4455
266.713, 39.4592
267.713, 39.473
268.714, 39.4868

File: x0.730y1.000.csv
220.816, 30.5035
222.067, 30.5207
223.317, 30.538
224.568, 30.5552
225.818, 30.5724
227.069, 30.5896
228.32, 30.6069
229.57, 30.6241
230.821, 30.6413
232.071, 30.6586
233.322, 30.6758
234.573, 30.693
237.074, 30.9876
238.324, 31.0048
239.575, 31.022
240.826, 31.1433
242.076, 31.2385
243.327, 31.6199
244.577, 32.5215
245.578, 33.8359
246.128, 35.4041
247.162, 36.7189
248.017, 35.7553
248.454, 34.5583
248.979, 33.2064
250.08, 32.1551
251.331, 31.7302
252.581, 31.4873
253.832, 31.4005
255.082, 31.3657
256.333, 31.3829
257.584, 31.4001
258.834, 31.4174
260.085, 31.4346
261.335, 31.4518
262.586, 31.391
263.837, 31.3562
265.087, 31.3734
266.338, 31.3907
267.588, 31.4079
268.839, 31.3991

File: x0.810y1.000.csv
221.191, 22.2935
222.692, 22.3359
224.193, 22.3565
225.693, 22.3772
227.194, 22.3979
228.695, 22.4186
230.195, 22.4392
231.696, 22.4816
233.197, 22.5239
234.698, 22.6313
236.198, 22.652
237.699, 22.6726
239.2, 22.9534
240.701, 22.9741
242.201, 23.1682
243.702, 23.7307
244.953, 24.7884
245.578, 26
246.203, 28.0353
246.678, 29.6372
247.516, 30.9363
248.329, 29.8095
248.642, 28.4483
248.954, 27.3471
249.455, 26.0209
249.98, 24.8707
250.955, 23.9824
252.456, 23.4828
253.957, 23.4168
255.458, 23.4375
256.958, 23.3714
258.459, 23.2187
259.96, 23.2394
261.46, 23.26
262.961, 23.2807
264.462, 23.3014
265.963, 23.1486
267.463, 23.0826
268.714, 23.0998

File: x1.000y1.000.csv
221.191, 5.53807
223.192, 5.56563
225.193, 5.5932
227.194, 5.62076
229.195, 5.64832
231.196, 5.67588
233.197, 5.70344
235.198, 5.79603
237.199, 5.88862
239.2, 6.11126
241.201, 6.33391
243.202, 6.45901
245.203, 6.81171
246.203, 7.41074
247.204, 8.62753
247.829, 10.0668
248.204, 11.6976
248.579, 13.4152
249.404, 15.306
250.08, 13.4792
250.33, 12.1821
250.705, 10.464
251.206, 8.94276
251.831, 7.65082
252.706, 6.91507
253.707, 6.79879
254.707, 6.78006
255.708, 6.79384
257.709, 6.95145
259.71, 6.97902
261.711, 6.94155
263.712, 6.4814
266.713, 6.16509
268.589, 6.19093