Folder: mowsse_alloys/raman/raman_data/WSSe

Note: raman/raman_data/WSSe/x1.000y0.300.json
{"version":[4,2],"axesColl":[{"name":"XY","type":"XYAxes","isLogX":false,"isLogY":false,"noRotation":false,"calibrationPoints":[{"px":32.760139049826186,"py":556.2398609501738,"dx":"100","dy":"0","dz":null},{"px":638.8227114716107,"py":556.2398609501738,"dx":"400","dy":"0","dz":null},{"px":32.760139049826186,"py":556.2398609501738,"dx":"100","dy":"0","dz":null},{"px":32.07763615295481,"py":12.28505214368482,"dx":"400","dy":"100","dz":null}]}],"datasetColl":[{"name":"Default Dataset","axesName":"XY","colorRGB":[200,0,0,255],"metadataKeys":[],"data":[{"x":34.5,"y":441.8,"value":[100.93230434519022,21.038486855419194]},{"x":39.5,"y":441.5,"value":[103.40748263819822,21.09363849580238]},{"x":44.5,"y":441.5,"value":[105.8824746080968,21.09363849580238]},{"x":49.5,"y":441.5,"value":[108.3574665779954,21.09363849580238]},{"x":54.5,"y":441.5,"value":[110.83245854789399,21.09363849580238]},{"x":59.5,"y":441.5,"value":[113.30745051779257,21.09363849580238]},{"x":64.5,"y":441.3,"value":[115.78256670309744,21.13040625605784]},{"x":69.5,"y":441,"value":[118.25774499610543,21.185557896441026]},{"x":74.5,"y":441.4,"value":[120.7324885351915,21.11202237593011]},{"x":79.5,"y":441.5,"value":[123.20741839738695,21.09363849580238]},{"x":84.5,"y":441.5,"value":[125.68241036728554,21.09363849580238]},{"x":89.5,"y":441.5,"value":[128.15740233718412,21.09363849580238]},{"x":94.5,"y":441.5,"value":[130.63239430708273,21.09363849580238]},{"x":99.5,"y":441.8,"value":[133.1071999538719,21.038486855419194]},{"x":104.5,"y":442,"value":[135.58206770836424,21.001719095163736]},{"x":109.5,"y":442.5,"value":[138.05674913974715,20.90979969452509]},{"x":114.5,"y":442.2,"value":[140.53192743275514,20.964951334908278]},{"x":119.5,"y":441.5,"value":[143.00735415657567,21.09363849580238]},{"x":124.5,"y":440.3,"value":[145.48309141891187,21.31424505733513]},{"x":129.5,"y":438.8,"value":[147.95901500435747,21.59000325925105]},{"x":134.5,"y":436.8,"value":[150.43524912831876,21.957680861805628]},{"x":139.5,"y":434.6,"value":[152.91160746768628,22.36212622461565]},{"x":144.5,"y":432.4,"value":[155.38796580705383,22.766571587425688]},{"x":149.5,"y":431.7,"value":[157.86339253087436,22.895258748319776]},{"x":154.5,"y":432,"value":[160.33819817766357,22.84010710793659]},{"x":159.25,"y":433.25,"value":[162.68866420277806,22.610308606339984]},{"x":164.5,"y":435.7,"value":[165.28588413244478,22.159903543210646]},{"x":168.5,"y":438.9,"value":[167.26389026186337,21.571619379123334]},{"x":173.5,"y":441.3,"value":[169.73739164688672,21.13040625605784]},{"x":178.5,"y":443.1,"value":[172.21126567812888,20.799496413758717]},{"x":183.5,"y":443.9,"value":[174.68576078640243,20.6524253727369]},{"x":188.5,"y":444,"value":[177.16069064859786,20.63404149260917]},{"x":193.5,"y":444,"value":[179.63568261849645,20.63404149260917]},{"x":198.5,"y":444,"value":[182.11067458839506,20.63404149260917]},{"x":203.5,"y":444,"value":[184.58566655829364,20.63404149260917]},{"x":208.5,"y":443.7,"value":[187.06084485130162,

Note: raman/raman_data/WSSe/x1.000y0.500.json
{"version":[4,2],"axesColl":[{"name":"XY","type":"XYAxes","isLogX":false,"isLogY":false,"noRotation":false,"calibrationPoints":[{"px":32.760139049826186,"py":556.2398609501738,"dx":"100","dy":"0","dz":null},{"px":638.8227114716107,"py":556.2398609501738,"dx":"400","dy":"0","dz":null},{"px":32.760139049826186,"py":556.2398609501738,"dx":"100","dy":"0","dz":null},{"px":32.07763615295481,"py":12.28505214368482,"dx":"400","dy":"100","dz":null}]}],"datasetColl":[{"name":"Default Dataset","axesName":"XY","colorRGB":[200,0,0,255],"metadataKeys":[],"data":[{"x":34.5,"y":389.5,"value":[100.96478667392941,30.653256162221226]},{"x":39.5,"y":389,"value":[103.44008918234368,30.74517556285987]},{"x":44.5,"y":388.1,"value":[105.91564012157048,30.91063048400943]},{"x":49.5,"y":388,"value":[108.3906941991722,30.92901436413716]},{"x":54.5,"y":388,"value":[110.8656861690708,30.92901436413716]},{"x":59.5,"y":388,"value":[113.34067813896938,30.92901436413716]},{"x":64.5,"y":388,"value":[115.81567010886798,30.92901436413716]},{"x":69.5,"y":388,"value":[118.29066207876657,30.92901436413716]},{"x":74.5,"y":387.8,"value":[120.76577826407143,30.965782124392618]},{"x":79.5,"y":388,"value":[123.24064601856375,30.92901436413716]},{"x":84.5,"y":388,"value":[125.71563798846233,30.92901436413716]},{"x":89.5,"y":388,"value":[128.19062995836094,30.92901436413716]},{"x":94.5,"y":388.2,"value":[130.66549771285327,30.892246603881702]},{"x":99.5,"y":388.5,"value":[133.14030335964245,30.837094963498515]},{"x":104.5,"y":388.2,"value":[135.61548165265043,30.892246603881702]},{"x":109.5,"y":387.9,"value":[138.09065994565844,30.94739824426489]},{"x":114.5,"y":386.6,"value":[140.56645931569778,31.18638868592535]},{"x":119.5,"y":385.5,"value":[143.04213447033084,31.38861136733037]},{"x":124.5,"y":384.4,"value":[145.5178096249639,31.59083404873539]},{"x":129.5,"y":383.6,"value":[147.99329845648757,31.737905089757206]},{"x":134.5,"y":383.4,"value":[150.46841464179244,31.774672850012678]},{"x":139.25,"y":383.25,"value":[152.8197501747508,31.802248670204264]},{"x":144.5,"y":384.5,"value":[155.41771539685513,31.57245016860766]},{"x":149.5,"y":385.9,"value":[157.89183785890987,31.315075846819468]},{"x":154.5,"y":388,"value":[160.3655255670426,30.92901436413716]},{"x":159.5,"y":389.7,"value":[162.83946170598793,30.616488401965782]},{"x":164.5,"y":390.9,"value":[165.3137083834489,30.395881840433034]},{"x":169.5,"y":391.5,"value":[167.7883277071287,30.28557855966666]},{"x":174.5,"y":391.5,"value":[170.26331967702728,30.28557855966666]},{"x":179.5,"y":391.5,"value":[172.73831164692587,30.28557855966666]},{"x":184.5,"y":391.5,"value":[175.21330361682448,30.28557855966666]},{"x":189.5,"y":391.7,"value":[177.6881713713168,30.248810799411203]},{"x":194.5,"y":392,"value":[180.16297701810598,30.193659159028016]},{"x":199.5,"y":392,"value":[182.63796898800456,30.193659159028016]},{"x":204.5,"y":392,"value":[185.11296095790317,30.193659159028016]},{"x":209.5,"y":391.8,"value":[187.588077143208,30.23042691928

File: x1.000y0.000.csv
100.893, 9.36735
104.358, 9.28856
107.822, 9.23604
111.288, 9.27543
114.753, 9.34109
118.217, 9.24917
121.682, 9.23604
125.147, 9.23604
128.612, 9.23604
132.077, 9.23604
135.542, 9.23604
139.008, 9.39361
142.473, 9.56432
145.939, 9.78755
149.404, 9.69563
152.869, 9.74816
156.335, 9.932
159.8, 10.1552
163.267, 10.6148
166.487, 11.4115
169.46, 12.3
171.443, 13.0967
174.168, 13.832
176.723, 13.3111
177.925, 12.3245
179.975, 11.2812
183.562, 10.6411
187.026, 10.3785
190.493, 10.93
193.958, 10.8512
197.42, 10.1421
200.885, 9.97139
204.35, 9.95826
207.814, 9.87947
211.279, 9.94513
214.744, 9.94513
218.209, 9.76129
221.674, 9.69563
225.139, 9.932
228.607, 10.6017
232.072, 10.733
235.535, 10.1421
238.999, 9.70876
242.463, 9.43301
245.927, 9.2623
249.392, 9.23604
252.857, 9.30169
256.323, 9.51179
259.788, 9.65624
263.254, 9.74816
266.718, 9.69563
270.183, 9.6825
273.649, 9.80068
277.114, 9.98452
280.58, 10.2209
284.046, 10.5886
287.513, 11.0744
290.732, 11.6413
293.706, 12.5605
296.182, 12.8669
297.486, 11.8623
299.888, 11.1663
303.354, 11.5078
306.574, 12.2234
309.3, 13.0599
312.025, 13.878
313.548, 14.7643
315.32, 15.8805
317.163, 17.1411
319.217, 18.2625
322.189, 18.7169
325.156, 18.0051
328.125, 17.6664
331.028, 18.5987
332.389, 19.6229
333.911, 20.8179
334.822, 21.9669
335.815, 22.8861
337.306, 24.6172
337.954, 25.8183
338.964, 26.9765
339.9, 28.526
340.79, 30.163
341.787, 32.2618
343.032, 34.4832
344.429, 37.8597
345.03, 39.7073
345.78, 41.9823
346.33, 43.7242
346.888, 45.5311
347.282, 46.946
347.929, 48.0996
349.523, 51.0594
351.498, 49.5197
352.086, 47.9709
352.727, 47.0379
352.971, 46.0344
353.215, 45.1076
353.707, 44.0505
353.95, 42.8326
354.045, 41.6468
354.56, 40.1669
354.678, 38.4434
355.02, 37.1979
355.413, 36.291
355.41, 35.3718
355.655, 34.5139
355.615, 33.424
356.14, 31.6873
356.384, 30.7145
356.629, 29.826
356.626, 28.9068
356.746, 27.8038
357.46, 26.7191
357.357, 25.5058
357.23, 24.6325
357.72, 23.1159
358.333, 21.4
358.821, 19.5616
359.063, 17.6696
360.047, 15.9462
361.033, 14.7665
362.69, 13.4381
364.639, 12.5451
367.705, 11.6785
371.167, 10.8775
374.631, 10.5229
378.095, 10.3391
381.56, 10.3916
385.025, 10.2603
388.488, 9.77442
391.953, 9.64311
395.418, 9.81381
398.884, 9.932
402.349, 9.94513
405.814, 10.0239
409.281, 10.4966
411.688, 11.2714
414.042, 13.354
414.987, 14.6593
416.301, 16.1694
417.773, 17.1888
419.445, 15.5478
420.183, 14.0158
420.773, 12.8393
421.577, 11.7791
422.647, 10.7619
424.789, 10.048
428.088, 9.65624
431.552, 9.41987
435.016, 9.20977
438.481, 9.06533
441.945, 8.96028
445.41, 8.96028
449.061, 8.85687
450.854, 8.5926

File: x1.000y0.300.csv
100.932, 21.0385
103.407, 21.0936
105.882, 21.0936
108.357, 21.0936
110.832, 21.0936
113.307, 21.0936
115.783, 21.1304
118.258, 21.1856
120.732, 21.112
123.207, 21.0936
125.682, 21.0936
128.157, 21.0936
130.632, 21.0936
133.107, 21.0385
135.582, 21.0017
138.057, 20.9098
140.532, 20.965
143.007, 21.0936
145.483, 21.3142
147.959, 21.59
150.435, 21.9577
152.912, 22.3621
155.388, 22.7666
157.863, 22.8953
160.338, 22.8401
162.689, 22.6103
165.286, 22.1599
167.264, 21.5716
169.737, 21.1304
172.211, 20.7995
174.686, 20.6524
177.161, 20.634
179.636, 20.634
182.111, 20.634
184.586, 20.634
187.061, 20.6892
189.536, 20.726
192.011, 20.7627
194.486, 20.8179
196.961, 20.8179
199.436, 20.8546
201.912, 20.965
204.387, 21.0017
206.862, 21.0201
209.337, 21.0936
211.812, 21.1672
214.288, 21.4062
216.763, 21.4981
219.239, 21.6268
221.714, 21.7371
224.189, 21.7371
226.664, 21.7738
229.14, 21.8658
231.615, 21.9209
234.09, 22.0312
236.565, 22.1048
239.041, 22.2886
241.517, 22.5092
243.993, 22.7482
246.468, 22.9688
248.944, 23.1159
251.42, 23.3916
253.896, 23.6306
256.373, 24.2557
258.664, 24.9772
260.222, 25.7215
261.913, 26.2233
263.803, 25.9838
266.276, 25.3955
267.883, 24.7934
270.233, 24.4395
272.708, 24.2373
275.183, 24.274
277.658, 24.366
280.133, 24.4211
282.608, 24.4947
285.084, 24.5498
287.559, 24.6601
290.034, 24.6785
292.509, 24.752
294.985, 24.9726
297.461, 25.23
299.937, 25.5609
302.413, 25.9286
304.889, 26.2963
307.366, 26.6823
309.842, 27.0132
312.318, 27.3074
314.794, 27.528
317.269, 27.6935
319.744, 27.7854
322.219, 27.6567
324.693, 27.3442
327.166, 26.811
329.639, 26.1492
332.181, 25.1644
334.088, 24.4027
336.56, 23.6306
339.033, 22.9504
341.507, 22.6747
343.982, 22.693
346.458, 23.0423
348.935, 23.5387
351.411, 23.888
353.887, 24.0351
356.362, 24.0351
358.836, 23.9983
361.311, 23.7409
363.784, 23.3916
366.258, 23.0423
368.733, 22.8401
371.207, 22.7482
373.682, 22.7482
376.158, 22.8585
378.633, 23.1159
381.109, 23.3916
383.585, 23.4713
386.059, 23.2262
388.533, 22.9872
391.007, 22.785
393.482, 22.7666
395.958, 22.932
398.434, 23.2078
401.076, 23.9125
403.177, 24.7048
404.382, 25.7631
405.871, 26.7773
407.36, 27.9263
408.848, 28.8761
410.335, 29.4813
412.935, 28.7327
413.795, 27.957
414.039, 27.1603
415.472, 26.1492
416.507, 25.0921
417.812, 24.1007
420.214, 23.3549
422.688, 22.9504
425.162, 22.7298
427.636, 22.546
430.111, 22.3437
432.585, 22.1048
435.059, 21.9209
437.534, 21.7371
440.008, 21.6819
442.483, 21.59
444.958, 21.5532
447.433, 21.5165
449.66, 21.4613

File: x1.000y0.500.csv
100.965, 30.6533
103.44, 30.7452
105.916, 30.9106
108.391, 30.929
110.866, 30.929
113.341, 30.929
115.816, 30.929
118.291, 30.929
120.766, 30.9658
123.241, 30.929
125.716, 30.929
128.191, 30.929
130.665, 30.8922
133.14, 30.8371
135.615, 30.8922
138.091, 30.9474
140.566, 31.1864
143.042, 31.3886
145.518, 31.5908
147.993, 31.7379
150.468, 31.7747
152.82, 31.8022
155.418, 31.5725
157.892, 31.3151
160.366, 30.929
162.839, 30.6165
165.314, 30.3959
167.788, 30.2856
170.263, 30.2856
172.738, 30.2856
175.213, 30.2856
177.688, 30.2488
180.163, 30.1937
182.638, 30.1937
185.113, 30.1937
187.588, 30.2304
190.063, 30.2856
192.538, 30.2856
195.013, 30.2856
197.488, 30.3223
199.964, 30.3775
202.439, 30.4326
204.914, 30.543
207.389, 30.6533
209.864, 30.6716
212.34, 30.8371
214.815, 30.9474
217.291, 31.1864
219.767, 31.407
222.243, 31.7379
224.719, 31.9401
227.194, 31.9769
229.669, 31.9401
232.144, 31.9401
234.619, 31.9769
237.094, 32.1424
239.57, 32.271
242.046, 32.6203
244.522, 32.988
246.998, 33.3373
249.474, 33.6682
251.951, 34.0359
254.242, 34.5828
255.718, 35.7088
257.334, 36.8119
257.991, 37.5192
258.931, 38.042
260.106, 38.4776
261.513, 38.3905
262.45, 37.9548
263.445, 37.2163
264.334, 36.3706
265.815, 35.4484
268.287, 34.4771
270.76, 33.8521
273.234, 33.5763
275.709, 33.4108
278.184, 33.4108
280.659, 33.4292
283.134, 33.5395
285.609, 33.5947
288.084, 33.5947
290.559, 33.6131
293.034, 33.6866
295.51, 33.8337
297.985, 33.8704
302.935, 33.944
305.41, 33.7601
307.884, 33.4476
310.357, 33.0799
312.831, 32.7674
315.305, 32.4549
317.779, 32.1424
320.253, 31.8482
322.727, 31.5908
325.201, 31.3702
327.676, 31.2967
330.151, 31.2967
332.626, 31.2232
335.101, 31.2967
337.576, 31.2967
340.051, 31.3151
342.527, 31.5357
345.002, 31.6644
347.478, 31.9401
349.954, 32.1791
352.43, 32.3446
354.905, 32.5468
357.38, 32.5836
359.855, 32.4733
362.329, 32.1975
364.803, 31.9769
367.278, 31.7747
369.752, 31.5908
372.227, 31.5725
374.703, 31.8298
377.179, 32.1975
379.656, 32.6203
383.121, 32.6387
385.595, 32.3997
388.069, 32.1791
390.543, 31.9769
393.018, 31.9401
395.493, 31.9401
397.969, 32.1056
400.446, 32.7123
403.006, 33.5334
404.906, 34.3484
407.506, 34.6211
409.855, 33.9807
412.03, 33.0432
413.315, 32.4181
415.788, 31.9217
418.262, 31.5541
420.736, 31.3151
423.21, 31.1496
425.685, 30.929
428.16, 30.929
430.634, 30.8003
433.109, 30.7452
435.584, 30.69
438.059, 30.6533
440.533, 30.5981
443.008, 30.5613
445.483, 30.543
447.958, 30.4143
449.938, 30.3775

File: x1.000y0.700.csv
101.239, 38.497
104.209, 38.543
107.179, 38.6502
110.149, 38.6502
113.119, 38.6809
116.09, 38.7422
119.059, 38.6809
122.029, 38.589
124.999, 38.5583
127.969, 38.5124
130.939, 38.543
133.909, 38.6043
136.88, 38.8034
139.85, 38.88
142.82, 38.926
145.789, 38.7422
148.759, 38.7422
151.729, 38.5124
154.698, 38.3898
157.668, 38.1906
160.638, 38.1906
163.608, 38.1906
166.577, 38.1447
169.547, 38.0681
172.517, 38.0068
175.487, 38.0068
178.457, 37.9149
181.427, 37.8996
184.397, 37.9302
187.367, 38.0068
190.337, 38.0068
193.307, 38.0068
196.277, 38.0834
199.247, 38.1906
202.217, 38.1906
205.187, 38.1906
208.158, 38.2213
211.128, 38.4051
214.098, 38.497
217.069, 38.7422
220.04, 39.0179
223.012, 39.4469
225.983, 39.7992
228.952, 39.692
231.922, 39.4775
234.892, 39.4775
237.862, 39.692
240.833, 39.8758
243.804, 40.1669
246.776, 40.6265
249.747, 41.1321
251.906, 41.8018
253.324, 42.7997
254.261, 43.8529
255.056, 44.7721
256.28, 45.8046
258.215, 46.3977
260.158, 45.728
260.699, 44.8088
261.142, 44.0735
262.306, 43.0755
263.61, 42.0972
265.058, 41.3422
267.884, 40.6593
271.029, 40.3048
273.999, 40.2129
276.969, 40.2282
279.94, 40.3967
282.91, 40.4274
285.88, 40.4274
289.344, 40.3661
292.314, 40.1669
295.283, 39.9524
298.253, 39.7992
301.222, 39.5388
304.191, 39.3703
307.16, 39.1252
310.129, 38.8188
313.099, 38.6196
316.068, 38.4511
319.038, 38.3745
322.008, 38.3745
324.978, 38.3745
327.948, 38.3745
330.918, 38.3898
333.888, 38.4664
336.858, 38.5277
339.828, 38.5583
342.799, 38.6962
345.769, 38.8034
348.739, 38.926
351.71, 39.0945
354.68, 39.2018
357.65, 39.2018
360.62, 39.0486
363.589, 38.8188
366.559, 38.7422
369.529, 38.7422
372.499, 38.8034
375.47, 39.0945
377.946, 39.4086
381.411, 39.4775
384.38, 39.263
387.35, 39.0639
390.319, 38.8954
393.289, 38.7422
396.259, 38.7422
399.229, 38.926
401.953, 39.2385
406.16, 39.2784
409.129, 38.9107
412.098, 38.589
415.067, 38.3592
418.037, 38.1906
421.007, 38.1906
423.976, 38.0681
426.946, 38.0221
429.916, 38.0068
432.886, 38.0068
435.856, 38.0068
438.826, 37.8689
441.795, 37.823
444.765, 37.823
447.735, 37.823
449.715, 37.823

File: x1.000y1.000.csv
101.024, 48.1179
103.499, 48.265
105.975, 48.504
108.451, 48.6695
110.926, 48.7246
113.401, 48.6695
115.876, 48.6695
118.351, 48.6695
120.826, 48.6695
123.301, 48.6878
125.776, 48.8533
128.252, 49.0739
130.728, 49.4232
132.708, 49.4967
135.679, 49.7357
138.153, 49.4048
140.627, 49.0188
143.1, 48.5592
145.574, 48.265
148.048, 48.0076
150.523, 47.787
152.997, 47.7135
155.472, 47.6583
157.947, 47.64
160.422, 47.5113
162.896, 47.401
165.371, 47.3826
167.846, 47.3826
170.321, 47.3826
172.796, 47.3826
175.271, 47.3826
177.746, 47.3826
180.221, 47.2723
182.696, 47.3826
185.171, 47.3826
187.646, 47.3826
190.121, 47.3826
192.596, 47.3826
195.071, 47.401
197.546, 47.4745
200.022, 47.64
202.497, 47.6583
204.972, 47.787
207.448, 47.9893
209.924, 48.3202
212.4, 48.6878
214.877, 49.0371
217.353, 49.4232
219.829, 49.8828
222.306, 50.4159
224.783, 51.041
227.261, 51.7763
229.735, 51.6476
232.208, 50.9307
234.683, 50.8939
237.158, 51.0594
239.635, 51.519
242.113, 52.5668
246.496, 55.5328
248.073, 58.2475
249.865, 61.2992
250.923, 64.5846
251.322, 67.6508
251.581, 71.0365
252.35, 78.9569
252.61, 82.6796
253.741, 91.7643
255.219, 85.7589
254.966, 83.9818
255.182, 82.1833
255.077, 80.351
255.319, 78.7501
255.314, 77.2334
255.679, 75.418
255.946, 73.7524
255.792, 72.1595
255.787, 70.6842
255.782, 69.1537
256.122, 67.1894
256.513, 65.8277
256.755, 64.2268
256.601, 62.5064
257.09, 60.7661
257.729, 59.2861
258.218, 57.6316
258.954, 55.8576
259.94, 54.681
262.413, 54.0743
264.887, 53.6699
267.36, 53.1919
269.834, 52.7139
272.307, 52.144
274.78, 51.7028
277.254, 51.28
279.727, 50.802
282.2, 50.2137
284.674, 49.7725
287.147, 49.2394
289.621, 49.0004
292.095, 48.7246
294.57, 48.6143
297.044, 48.3937
299.518, 48.1547
301.993, 48.026
304.468, 47.9525
306.942, 47.64
309.416, 47.548
311.891, 47.4194
314.366, 47.3826
316.841, 47.4745
319.316, 47.4377
321.791, 47.548
324.266, 47.5848
326.741, 47.6216
329.217, 47.6767
331.692, 47.7503
334.168, 47.9709
336.643, 48.026
339.118, 48.0628
341.594, 48.265
344.069, 48.3937
346.544, 48.5592
349.02, 48.6695
351.495, 48.8165
353.971, 48.9268
356.445, 48.7062
358.92, 48.6143
361.394, 48.4856
363.869, 48.4856
366.344, 48.4121
368.82, 48.5959
371.295, 48.743
373.772, 49.1842
376.249, 49.8276
378.725, 50.1769
381.199, 49.9747
383.672, 49.4416
386.146, 49.0923
388.621, 48.9636
391.095, 48.743
393.57, 48.7246
396.045, 48.743
398.52, 48.8165
400.996, 48.9636
403.47, 48.6511
405.943, 48.2282
408.417, 47.9525
410.891, 47.6216
413.365, 47.4194
415.84, 47.3826
418.315, 47.3458
420.79, 47.2171
423.265, 47.1987
425.74, 47.1804
428.214, 47.162
430.69, 47.1804
433.164, 47.0884
435.64, 47.1987
438.114, 47.1436
440.589, 47.1068
443.064, 47.0701
445.539, 47.1436
448.014, 47.0149
449.994, 47.0455